Folder: tga-dashboard202506

Note: README.md
# tga-dashboard202506
Monitor TGA &amp; SPX202506

File: sample_tga.csv
date,tga_balance
2025-04-24,460
2025-05-01,452
2025-05-08,427
2025-05-15,379
2025-05-22,359
2025-05-29,403
2025-06-05,417
2025-06-12,404
2025-06-19,389
2025-06-26,447